SubjID,Run,Feedback,Counterbalance,Block,Trial,Condition,Cond_num(1=E/2=H),CorResp(1=L/2=R),Resp,RT,GradedResp,CorGrid,DecoyGrid,TrialStart/Stim1,Stim2,Stim3,Stim4,MemProbe,Feedback,TrialEnd
BW212,1,y,1,1,1,Easy,1,2,-1,3,0,1  10   6   2,1  10  12   2,16.092,17.0919,18.0918,19.0917,20.0917,23.1081,23.358
BW212,1,y,1,1,2,Easy,1,2,2,1.1707,1,5   4  12  11,5   4   6  11,24.1008,25.1079,26.116,27.1244,28.1313,29.3137,29.5636
BW212,1,y,1,1,3,Easy,1,2,2,1.1049,1,12   2   8   3,12   4   8   3,32.1407,33.1443,34.1436,35.1429,36.1422,37.258,37.5079
BW212,1,y,1,1,4,Easy,1,2,2,1.1549,1,2   4  11   5,12   4  11   5,40.1401,41.14,42.1399,43.1398,44.1397,45.3063,45.5563
BW212,1,y,1,2,5,Hard,2,1,1,1.689,1,7   6   4   8   9   1   5  11,7  10   4   8   9   1   5  11,48.1394,49.1394,50.1488,51.1559,52.164,53.8628,54.1126
BW212,1,y,1,2,6,Hard,2,2,2,1.6543,1,5  12   4   7   3  10   6   1,5  12   4   7   8  10   6   1,56.1721,57.1771,58.1764,59.1757,60.175,61.8404,62.0903
BW212,1,y,1,2,7,Hard,2,1,1,0.88253,1,9  11   3   7   4   8   1  12,9  11   3   7   4   8   2  12,64.1721,65.1714,66.1713,67.1713,68.1712,69.0711,69.3211
BW212,1,y,1,2,8,Hard,2,2,2,1.6897,1,11   3   6   1   4   9  12   7,11   3   6   1   4   2  12   7,72.1709,73.1708,74.1707,75.1706,76.1802,77.8871,78.1454
BW212,1,y,1,3,9,Hard,2,1,1,1.6328,1,5   3  10   1   8   9  11   4,5   7  10   1   8   9  11   4,80.1869,81.1933,82.1925,83.1918,84.1911,85.8399,86.0897
BW212,1,y,1,3,10,Hard,2,1,1,1.0018,1,7   1   5   6   8  11   3  10,12   1   5   6   8  11   3  10,88.1882,89.1875,90.1868,91.1861,92.1859,93.2025,93.4525
BW212,1,y,1,3,11,Hard,2,1,2,2.0381,0,2   4   1  11   9  12   8   7,2   4   6  11   9  12   8   7,96.1856,97.1856,98.1855,99.1854,100.1853,102.2351,102.4851
BW212,1,y,1,3,12,Hard,2,1,1,0.866,1,12  10   6   4   1   7   5  11,12  10   6   4   1   7   8  11,104.1934,105.2016,106.2087,107.2181,108.2239,109.1066,109.3564
BW212,1,y,1,4,13,Easy,1,2,2,0.88089,1,5  8  1  2,4  8  1  2,112.2273,113.237,114.2363,115.2355,116.2348,117.134,117.384
BW212,1,y,1,4,14,Easy,1,1,1,1.1065,1,11   6  10   5,12   6  10   5,120.2337,121.2336,122.2336,123.2335,124.2334,125.35,125.6
BW212,1,y,1,4,15,Easy,1,1,1,1.1888,1,3   2  10  12,3   1  10  12,128.2429,129.2497,130.2581,131.2662,132.2733,133.4725,133.7223
BW212,1,y,1,4,16,Easy,1,1,1,0.8618,1,3  5  1  6,3  10   1   6,136.2825,137.2864,138.2857,139.285,140.2843,141.1503,141.4001
BW212,1,y,1,5,17,Hard,2,2,1,1.6889,0,8   9   1  11  12   7   4   5,8   9   1  11  12   6   4   5,157.5053,158.514,159.5205,160.5198,161.5191,163.2178,163.4676
BW212,1,y,1,5,18,Hard,2,1,1,1.4396,1,1   3  12  10   8   5   7   6,1   3  12  10   8   2   7   6,165.5162,166.5155,167.5148,168.514,169.5133,170.963,171.213
BW212,1,y,1,5,19,Hard,2,1,1,1.0856,1,5  12   4   8   1   9  11   2,5   6   4   8   1   9  11   2,173.5128,174.5128,175.5127,176.5126,177.5125,178.6124,178.8624
BW212,1,y,1,5,20,Hard,2,1,1,1.2023,1,9   2   5   1   8  11   6  12,9   2   5   1   8  11   3  12,181.5214,182.5288,183.5366,184.5453,185.5518,186.7676,187.0174
BW212,1,y,1,6,21,Easy,1,1,2,1.7829,0,1  5  4  6,11   5   4   6,189.5616,190.5649,191.5642,192.5635,193.5628,195.3615,195.6113
BW212,1,y,1,6,22,Easy,1,1,1,1.0611,1,6   7   4  11,6   7   4  12,197.5609,198.5609,199.5608,200.5607,201.5606,202.6396,202.8938
BW212,1,y,1,6,23,Easy,1,2,1,1.5322,0,10  11   3   2,1  11   3   2,205.5603,206.5602,207.5694,208.5767,209.5846,211.1335,211.3833
BW212,1,y,1,6,24,Easy,1,1,2,1.0892,0,12   5   6   8,12   9   6   8,213.593,214.5977,215.597,216.5963,217.5956,218.695,218.9446
BW212,1,y,1,7,25,Easy,1,1,1,0.91761,1,2  10   6   4,2  3  6  4,221.5927,222.5923,223.5922,224.5921,225.5921,226.5253,226.7753
BW212,1,y,1,7,26,Easy,1,1,2,1.3608,0,6  7  1  3,5  7  1  3,229.5917,230.5917,231.5916,232.5915,233.6008,234.9746,235.2329
BW212,1,y,1,7,27,Easy,1,1,1,0.78038,1,4   5   6  12,4   7   6  12,237.6078,238.6138,239.6131,240.6124,241.6117,242.4074,242.6609
BW212,1,y,1,7,28,Easy,1,2,2,1.2068,1,8  12   9   3,8  11   9   3,245.6088,246.6081,247.6074,248.6069,249.6068,250.8234,251.0734
BW212,1,y,1,8,29,Hard,2,2,1,1.2433,0,8   9   6   5   3  10  12   2,8  11   6   5   3  10  12   2,253.6065,254.6064,255.6064,256.6063,257.6062,258.866,259.1227
BW212,1,y,1,8,30,Hard,2,2,1,1.2686,0,9  10   3  11  12   8   2   1,9  10   3   4  12   8   2   1,261.614,262.6225,263.6293,264.639,265.6445,266.9269,267.1767
BW212,1,y,1,8,31,Hard,2,2,2,1.9416,1,9   8   1   7   6   3  10  12,9   8   1   7   6   3  10   4,269.6416,270.6409,271.6402,272.6395,273.6388,275.5881,275.8381
BW212,1,y,1,8,32,Hard,2,2,1,1.2863,0,9   4   3   8  10  11   2   7,9   4   3   8  10  11   2   5,277.638,278.6379,279.6378,280.6377,281.6376,282.9375,283.1875
BW212,1,y,1,9,33,Easy,1,2,2,1.4947,1,11   7   8   5,11   1   8   5,299.2871,300.2863,301.2861,302.286,303.2859,304.7858,305.0358
BW212,1,y,1,9,34,Easy,1,2,2,1.2842,1,5  4  7  3,5   4   7  10,307.2856,308.2855,309.2855,310.2854,311.2853,312.5852,312.844
BW212,1,y,1,9,35,Easy,1,1,1,0.86178,1,10   6   4   7,10   9   4   7,315.2923,316.3016,317.3075,318.3068,319.3061,320.1846,320.4386
BW212,1,y,1,9,36,Easy,1,1,2,0.87273,0,5  10   9   8,5  10   9   2,323.3032,324.3025,325.3018,326.301,327.3007,328.1839,328.4339
BW212,1,y,1,10,37,Hard,2,2,1,1.2103,0,8   4   1   9   3  10  11   2,5   4   1   9   3  10  11   2,331.3004,332.3003,333.3002,334.3001,335.3001,336.527,336.7833
BW212,1,y,1,10,38,Hard,2,1,1,1.2577,1,6   4  10   9  11   8   1   7,6   4  10   9  11   8   3   7,339.3084,340.3163,341.3236,342.3328,343.3388,344.6046,344.8544
BW212,1,y,1,10,39,Hard,2,2,1,1.1774,0,5   3  10   8   6   4  12   1,5   3  10   8   6   4  12   9,347.336,348.3353,349.3346,350.3338,351.3331,352.5156,352.7654
BW212,1,y,1,10,40,Hard,2,1,1,1.3213,1,7  12   5   9  10  11   3   2,7  12   5   9  10  11   6   2,355.3318,356.3317,357.3317,358.3316,359.3315,360.6647,360.9147
BW212,1,y,1,11,41,Hard,2,2,2,1.5474,1,12   5   7   6  10   2  11   4,12   5   3   6  10   2  11   4,363.3412,364.3478,365.3564,366.3643,367.3716,368.9372,369.187
BW212,1,y,1,11,42,Hard,2,2,2,0.80585,1,7  11  12   3   4   9   8   6,7  10  12   3   4   9   8   6,371.3806,372.3847,373.384,374.3833,375.3826,376.1986,376.4485
BW212,1,y,1,11,43,Hard,2,1,1,0.9824,1,3   9  12   4   8  10   6  11,3   1  12   4   8  10   6  11,379.3799,380.3798,381.3798,382.3797,383.3796,384.3795,384.6295
BW212,1,y,1,11,44,Hard,2,2,2,1.3714,1,3   6   8   4  12   1   2  11,3   6   8   4  12   7   2  11,387.3793,388.3792,389.3791,390.3885,391.3956,392.7788,393.0366
BW212,1,y,1,12,45,Easy,1,2,1,1.7088,0,8   7  12   6,8   7  12   4,395.4016,396.4009,397.4001,398.3994,399.3987,401.1141,401.364
BW212,1,y,1,12,46,Easy,1,1,1,0.921,1,12   5   2  11,12   5   2   3,403.3958,404.3951,405.3945,406.3945,407.3944,408.3276,408.5776
BW212,1,y,1,12,47,Easy,1,2,2,1.06,1,11   9   7   4,10   9   7   4,411.3941,412.394,413.3939,414.3938,415.3937,416.4698,416.727
BW212,1,y,1,12,48,Easy,1,2,2,1.1577,1,8  2  3  9,8   2   3  10,419.4011,420.41,421.4163,422.4156,423.4148,424.5807,424.8305
