SubjID,Run,Feedback,Counterbalance,Block,Trial,Condition,Cond_num(1=E/2=H),CorResp(1=L/2=R),Resp,RT,GradedResp,CorGrid,DecoyGrid,TrialStart/Stim1,Stim2,Stim3,Stim4,MemProbe,Feedback,TrialEnd
AP212,2,y,2,1,1,Hard,2,2,2,0.63469,1,10   7   6   2  12   8   4   1,10   7   6   2  12   8   4   5,16.0686,17.0679,18.0672,19.0665,20.0658,20.7153,20.9651
AP212,2,y,2,1,2,Hard,2,2,1,0.72643,0,7   1   5  12   4   8   9  11,7   1   5  12   4   6   9  11,24.063,25.0623,26.0619,27.0619,28.0618,28.7951,29.0451
AP212,2,y,2,1,3,Hard,2,2,1,0.53654,0,6   9   2   3   7  10  11   4,6   9   8   3   7  10  11   4,32.0615,33.0615,34.0614,35.0613,36.0613,36.6112,36.8612
AP212,2,y,2,1,4,Hard,2,2,1,0.59941,0,8   5   2   1   3   9  11   4,8  10   2   1   3   9  11   4,40.0683,41.0776,42.0836,43.0829,44.0822,44.6984,44.9482
AP212,2,y,2,2,5,Easy,1,2,2,0.85458,1,6  11  10   1,6  11  10   5,48.0793,49.0786,50.0779,51.0772,52.0768,52.9434,53.1934
AP212,2,y,2,2,6,Easy,1,1,1,0.61474,1,3  12   8   4,3  10   8   4,56.0765,57.0765,58.0764,59.0763,60.0763,60.7038,60.9595
AP212,2,y,2,2,7,Easy,1,1,1,0.51612,1,11   2   5   6,11  12   5   6,64.0847,65.0926,66.1,67.1091,68.1152,68.6482,68.898
AP212,2,y,2,2,8,Easy,1,1,1,0.51467,1,7   2  10  12,7   3  10  12,72.1124,73.1117,74.111,75.1103,76.1096,76.6418,76.8923
AP212,2,y,2,3,9,Easy,1,2,2,0.53179,1,9   1   6  11,9   1   7  11,80.1082,81.1082,82.1081,83.108,84.108,84.6579,84.9079
AP212,2,y,2,3,10,Easy,1,1,1,0.62682,1,4   8  12   9,2   8  12   9,88.1077,89.1171,90.1242,91.1323,92.1407,92.7811,93.0309
AP212,2,y,2,3,11,Easy,1,1,1,0.62284,1,12   8   9   2,12   8   4   2,96.1454,97.1447,98.144,99.1433,100.1426,100.7755,101.0253
AP212,2,y,2,3,12,Easy,1,2,2,0.61603,1,3   7  10   8,4   7  10   8,104.1399,105.1399,106.1398,107.1397,108.1397,108.7729,109.0229
AP212,2,y,2,4,13,Hard,2,2,1,0.55856,0,5   3   8  12   2   1   9  11,5   3   8   7   2   1   9  11,112.1457,113.1501,114.1559,115.1653,116.1724,116.7475,117.0057
AP212,2,y,2,4,14,Hard,2,1,1,0.87195,1,12   4   5   8  10   6   9   2,12   4   5   8  10  11   9   2,120.1785,121.1778,122.1771,123.1764,124.1757,125.0584,125.3082
AP212,2,y,2,4,15,Hard,2,1,1,0.6943,1,4   1  12   5   3   9   8  11,4   1  12   5  10   9   8  11,128.1728,129.1721,130.1715,131.1714,132.1713,132.8713,133.1213
AP212,2,y,2,4,16,Hard,2,1,2,0.65059,0,4   5   7  12   8  10   1   9,4   5   7  12   6  10   1   9,136.1711,137.171,138.1709,139.1709,140.1708,140.8374,141.0874
AP212,2,y,2,5,17,Easy,1,2,2,0.67723,1,2   5  10  11,2   5   3  11,157.1863,158.1862,159.1862,160.1861,161.186,161.8693,162.1193
AP212,2,y,2,5,18,Easy,1,1,1,0.577,1,2  5  3  8,2   5  11   8,165.1858,166.1857,167.1953,168.2022,169.2106,169.8021,170.0599
AP212,2,y,2,5,19,Easy,1,1,2,0.82173,0,3  10   6   8,3  11   6   8,173.2185,174.2237,175.223,176.2223,177.2216,178.0543,178.3041
AP212,2,y,2,5,20,Easy,1,2,2,0.49636,1,4  5  2  7,4  5  3  7,181.2187,182.218,183.2179,184.2178,185.2177,185.7177,185.9677
AP212,2,y,2,6,21,Hard,2,2,2,0.55167,1,11   1   6   7   5   8   3  10,11   1   6   7   5   8   3   2,189.2174,190.2174,191.2173,192.2172,193.2269,193.7932,194.0504
AP212,2,y,2,6,22,Hard,2,2,1,0.69352,0,2   6   4   8   3  11  12   7,2   6   4   8   9  11  12   7,197.2336,198.2401,199.2394,200.2387,201.238,201.9375,202.1873
AP212,2,y,2,6,23,Hard,2,1,1,0.55114,1,10   1   4   8   2  12   7   5,10   1   4   8   2  12   6   5,205.2351,206.2344,207.2337,208.233,209.2327,209.7994,210.0493
AP212,2,y,2,6,24,Hard,2,2,1,0.57111,0,3  11   8   2   6   4  12   1,3  11   8   9   6   4  12   1,213.2325,214.2324,215.2323,216.2323,217.2322,217.8155,218.0655
AP212,2,y,2,7,25,Hard,2,2,2,0.73621,1,10   8  12   2   7   4   5  11,10   8  12   2   1   4   5  11,221.2405,222.2485,223.2558,224.2651,225.271,226.0205,226.2703
AP212,2,y,2,7,26,Hard,2,1,1,0.53662,1,4  11   6   7   8   5   1   3,4  11   6   7   2   5   1   3,229.2682,230.2675,231.2668,232.2661,233.2654,233.815,234.0648
AP212,2,y,2,7,27,Hard,2,2,2,0.90113,1,3  11   9   5   1  12   2  10,3  11   9   5   1   7   2  10,237.2642,238.2641,239.264,240.264,241.2639,242.1805,242.4305
AP212,2,y,2,7,28,Hard,2,1,1,0.85718,1,5  10   7  12   1   9   6   8,5  10   7   2   1   9   6   8,245.2736,246.2802,247.2888,248.2968,249.3041,250.1701,250.4199
AP212,2,y,2,8,29,Easy,1,1,1,0.60496,1,1   4   2  11,7   4   2  11,253.3131,254.3172,255.3165,256.3158,257.3151,257.9313,258.1811
AP212,2,y,2,8,30,Easy,1,1,2,0.72145,0,4   9  10   2,8   9  10   2,261.3125,262.3125,263.3124,264.3123,265.3123,266.0455,266.2955
AP212,2,y,2,8,31,Easy,1,2,2,0.55465,1,2  3  7  6,2   3   7  12,269.312,270.3119,271.3118,272.3212,273.3284,273.895,274.1532
AP212,2,y,2,8,32,Easy,1,2,2,0.63063,1,12   3  11   9,12   3   2   9,277.3343,278.3336,279.3329,280.3322,281.3315,281.9778,282.2308
AP212,2,y,2,9,33,Hard,2,1,1,0.67633,1,4   5   6   9   8   3  11  12,4   5   7   9   8   3  11  12,298.3361,299.3433,300.3514,301.3598,302.3666,303.0597,303.316
AP212,2,y,2,9,34,Hard,2,1,1,0.65127,1,6   7   4  12   2   5  10  11,8   7   4  12   2   5  10  11,306.3761,307.3798,308.3791,309.3784,310.3776,311.0439,311.2937
AP212,2,y,2,9,35,Hard,2,1,2,0.78818,0,12   6   8  11   4   5  10   7,12   6   2  11   4   5  10   7,314.3756,315.3755,316.3754,317.3754,318.3753,319.1752,319.4252
AP212,2,y,2,9,36,Hard,2,1,2,0.6211,0,12   3   2   1   4   6   8   5,12   3  11   1   4   6   8   5,322.375,323.375,324.3844,325.3915,326.3997,327.0326,327.2914
AP212,2,y,2,10,37,Easy,1,2,2,0.65992,1,1   8  10   3,1  8  5  3,330.4078,331.4128,332.4121,333.4114,334.4107,335.0769,335.3267
AP212,2,y,2,10,38,Easy,1,2,2,0.49232,1,6   2  10  12,6   9  10  12,338.4079,339.4072,340.4071,341.4071,342.407,342.907,343.1569
AP212,2,y,2,10,39,Easy,1,1,1,0.68813,1,4   7   3  12,4  7  3  8,346.4067,347.4067,348.4066,349.4065,350.4161,351.1156,351.373
AP212,2,y,2,10,40,Easy,1,2,2,0.58135,1,3  11   5   4,1  11   5   4,354.4228,355.4292,356.4285,357.4278,358.4271,359.0225,359.2765
AP212,2,y,2,11,41,Easy,1,1,1,0.57181,1,6  7  9  3,6  7  9  8,362.4243,363.4236,364.4229,365.4222,366.422,367.0053,367.2553
AP212,2,y,2,11,42,Easy,1,1,1,0.49403,1,9  7  5  6,9  7  2  6,370.4218,371.4217,372.4216,373.4216,374.4215,374.9321,375.1881
AP212,2,y,2,11,43,Easy,1,2,2,0.47943,1,6   9  12  11,6   9  12   3,378.4297,379.4378,380.4449,381.4543,382.4601,382.9542,383.2096
AP212,2,y,2,11,44,Easy,1,2,2,0.53035,1,7   9  12   6,3   9  12   6,386.4573,387.4566,388.4559,389.4552,390.4545,390.9875,391.2373
AP212,2,y,2,12,45,Hard,2,2,1,0.76727,0,6   5   1   4   3   2  12   9,6  5  1  4  3  2  7  9,394.4535,395.4534,396.4533,397.4532,398.4532,399.2364,399.4864
AP212,2,y,2,12,46,Hard,2,1,1,0.60193,1,2   6   7  11   5   3   9  10,2   6   7  11   5   3   4  10,402.4627,403.4695,404.478,405.486,406.4932,407.1094,407.3592
AP212,2,y,2,12,47,Hard,2,2,2,0.62786,1,1  11  12   8   3   7   5  10,9  11  12   8   3   7   5  10,410.5024,411.5063,412.5056,413.5049,414.5042,415.1371,415.3869
AP212,2,y,2,12,48,Hard,2,1,2,0.60315,0,7   4   2  11   5  12  10   3,7   4   2  11   5  12  10   6,418.5018,419.5017,420.5017,421.5016,422.5015,423.1182,423.3681
