SubjID,Run,Feedback,Counterbalance,Block,Trial,Condition,Cond_num(1=E/2=H),CorResp(1=L/2=R),Resp,RT,GradedResp,CorGrid,DecoyGrid,TrialStart/Stim1,Stim2,Stim3,Stim4,MemProbe,Feedback,TrialEnd
AP212,1,y,1,1,1,Easy,1,2,1,0.89785,0,10   6   8   9,7  6  8  9,16.0738,17.0737,18.0736,19.0736,20.0735,20.9834,21.2401
AP212,1,y,1,1,2,Easy,1,1,2,0.67787,0,3   8  12   1,3  8  7  1,24.0813,25.0898,26.0965,27.0958,28.0951,28.7895,29.0444
AP212,1,y,1,1,3,Easy,1,1,1,0.65894,1,2  12   7   8,3  12   7   8,32.0923,33.0916,34.0909,35.0902,36.0895,36.7557,37.0056
AP212,1,y,1,1,4,Easy,1,2,2,0.70167,1,9   4  12  11,9   4   2  11,40.0888,41.0887,42.0886,43.0886,44.0885,44.8051,45.0551
AP212,1,y,1,2,5,Hard,2,1,1,0.57604,1,7   5  10   3   9   8   1   2,7  5  6  3  9  8  1  2,48.0977,49.1048,50.1129,51.1213,52.1281,52.7212,52.9775
AP212,1,y,1,2,6,Hard,2,1,2,0.79125,0,3  10   8   4   6   2   9  11,3  10   8   4   6   2   9   7,56.1377,57.1413,58.1406,59.1399,60.1392,60.9386,61.1884
AP212,1,y,1,2,7,Hard,2,1,2,0.55531,0,10   6   7   2  12  11   1   8,10   6   7   2  12   5   1   8,64.1371,65.1371,66.137,67.1369,68.1368,68.7035,68.9535
AP212,1,y,1,2,8,Hard,2,2,2,0.71344,1,3  11   7   9  10   8  12   1,3  11   4   9  10   8  12   1,72.1366,73.1365,74.1459,75.153,76.1612,76.8862,77.1438
AP212,1,y,1,3,9,Hard,2,1,1,0.69832,1,11   6   7   5   4  12   9   1,11   6  10   5   4  12   9   1,80.1694,81.1743,82.1736,83.1729,84.1722,84.8883,85.1382
AP212,1,y,1,3,10,Hard,2,1,2,0.6947,0,6   2   1   9   7   5  12   3,6  2  1  9  7  5  8  3,88.1694,89.1687,90.1687,91.1686,92.1685,92.8685,93.1185
AP212,1,y,1,3,11,Hard,2,1,2,0.62525,0,1  10   4   3  11   8   2   5,1   6   4   3  11   8   2   5,96.1683,97.1682,98.1681,99.1681,100.1776,100.8179,101.0679
AP212,1,y,1,3,12,Hard,2,2,2,0.67956,1,1   2   6   5  11   3   8   4,1   2   6   7  11   3   8   4,104.1844,105.1907,106.19,107.1893,108.1886,108.8841,109.1379
AP212,1,y,1,4,13,Easy,1,2,1,0.47562,0,1  6  8  2,1  6  5  2,112.192,113.2004,114.201,115.2003,116.2002,116.6835,116.9335
AP212,1,y,1,4,14,Easy,1,2,2,0.50102,1,11   8   1   6,9  8  1  6,120.2,121.1999,122.1998,123.1998,124.1997,124.7163,124.9663
AP212,1,y,1,4,15,Easy,1,1,1,0.60312,1,2   9   8  10,2   9   8  12,128.2078,129.216,130.223,131.2325,132.2383,132.8545,133.1043
AP212,1,y,1,4,16,Easy,1,1,2,0.6145,0,10   9   4   3,11   9   4   3,136.2355,137.2348,138.2341,139.2334,140.2327,140.8652,141.1153
AP212,1,y,1,5,17,Hard,2,2,2,0.58479,1,12   5   9   6   3  10   2   7,12   5   9   6   3  10   2   1,157.2207,158.22,159.2193,160.2185,161.2178,161.8174,162.0672
AP212,1,y,1,5,18,Hard,2,1,2,0.69567,0,10   1   3   7  12   2   9   5,10  11   3   7  12   2   9   5,165.215,166.2143,167.2136,168.2133,169.2133,169.9132,170.1632
AP212,1,y,1,5,19,Hard,2,1,1,0.59848,1,12   2   1   4   6   9   8  10,12   7   1   4   6   9   8  10,173.213,174.2129,175.2129,176.2128,177.2127,177.8228,178.0793
AP212,1,y,1,5,20,Hard,2,2,1,0.63634,0,12   8   2   4   7   9  11   6,12   5   2   4   7   9  11   6,181.2204,182.2291,183.2356,184.2349,185.2342,185.8838,186.1336
AP212,1,y,1,6,21,Easy,1,1,2,0.54606,0,1  12   8  10,9  12   8  10,189.2314,190.2307,191.23,192.2293,193.2286,193.7783,194.0282
AP212,1,y,1,6,22,Easy,1,2,2,0.7245,1,9   8  12  10,9   8  12   1,197.228,198.228,199.2279,200.2278,201.2278,201.961,202.211
AP212,1,y,1,6,23,Easy,1,1,1,0.70567,1,6  12   7   3,6  12  10   3,205.2368,206.2441,207.252,208.2606,209.2673,209.9834,210.2333
AP212,1,y,1,6,24,Easy,1,1,1,0.46515,1,3   1  12   9,3  11  12   9,213.2769,214.2804,215.2797,216.279,217.2783,217.7613,218.0111
AP212,1,y,1,7,25,Easy,1,2,2,0.55865,1,4  12  11   8,4  12  11   9,221.2764,222.2763,223.2763,224.2762,225.2761,225.8427,226.0927
AP212,1,y,1,7,26,Easy,1,1,1,0.4231,1,7   8  10   6,3   8  10   6,229.2758,230.2758,231.2851,232.2923,233.3003,233.7333,233.9922
AP212,1,y,1,7,27,Easy,1,2,1,0.58931,0,12   3   4   5,11   3   4   5,237.3086,238.3135,239.3128,240.3121,241.3113,241.9109,242.1607
AP212,1,y,1,7,28,Easy,1,1,1,0.56241,1,6  11   1   5,8  11   1   5,245.3085,246.308,247.3079,248.3079,249.3078,249.8744,250.1244
AP212,1,y,1,8,29,Hard,2,2,1,0.53712,0,5   3   2  10   4  11   8   1,5   3   2   6   4  11   8   1,253.3075,254.3075,255.3074,256.3073,257.3167,257.8663,258.1239
AP212,1,y,1,8,30,Hard,2,2,1,0.58785,0,3   2  10   8  11  12   4   1,3   5  10   8  11  12   4   1,261.3237,262.3299,263.3292,264.3285,265.3277,265.9273,266.1771
AP212,1,y,1,8,31,Hard,2,2,2,0.42818,1,3  10  11   1   2   8   9   7,3  10  11   5   2   8   9   7,269.3249,270.3242,271.3235,272.3229,273.3228,273.7561,274.0061
AP212,1,y,1,8,32,Hard,2,1,2,0.43798,0,12   4   3   9  10   5  11   2,12   1   3   9  10   5  11   2,277.3226,278.3225,279.3224,280.3224,281.3223,281.7723,282.0222
AP212,1,y,1,9,33,Easy,1,2,2,0.65767,1,9  12   3   4,8  12   3   4,298.1213,299.1211,300.121,301.1209,302.1209,302.7875,303.0375
AP212,1,y,1,9,34,Easy,1,2,2,0.50354,1,7  11   8   2,1  11   8   2,306.1206,307.1205,308.1205,309.1302,310.137,310.6536,310.9122
AP212,1,y,1,9,35,Easy,1,2,2,0.53796,1,12   8   6   3,12   1   6   3,314.1433,315.1426,316.1419,317.1412,318.1405,318.6901,318.9399
AP212,1,y,1,9,36,Easy,1,1,2,0.54043,0,9  12   3   8,9  12   6   8,322.1377,323.137,324.1363,325.136,326.1359,326.6859,326.9358
AP212,1,y,1,10,37,Hard,2,2,1,0.78396,0,12   5   7  11   6  10   8   1,12   5   7  11   6   3   8   1,330.1356,331.1356,332.1355,333.1354,334.1354,334.9353,335.1853
AP212,1,y,1,10,38,Hard,2,1,1,0.72328,1,1   8   3  10   4  11   9   5,1   8   3  10   7  11   9   5,338.1431,339.1517,340.1583,341.1576,342.1569,342.8897,343.1395
AP212,1,y,1,10,39,Hard,2,2,2,0.77745,1,2   4   3   1  10   8   9   5,2  4  3  1  7  8  9  5,346.1541,347.1534,348.1527,349.152,350.1513,350.9342,351.1842
AP212,1,y,1,10,40,Hard,2,2,2,0.11514,1,5   2   7   9   3   1  12  11,5   2   7   8   3   1  12  11,354.1507,355.1506,356.1505,357.1505,358.1504,358.2837,358.5337
AP212,1,y,1,11,41,Hard,2,1,2,0.71012,0,10   9  11   5   8  12   6   4,10   9  11   5   7  12   6   4,362.1594,363.1667,364.1747,365.1833,366.1899,366.9165,367.1726
AP212,1,y,1,11,42,Hard,2,2,1,0.4891,0,8   2   7   5  10   9  11   1,8   2   7   5  10   9   3   1,370.1996,371.2031,372.2024,373.2017,374.201,374.7006,374.9504
AP212,1,y,1,11,43,Hard,2,2,2,0.48342,1,1  10  12   7   6   8   9   5,1  11  12   7   6   8   9   5,378.199,379.199,380.1989,381.1988,382.1988,382.6987,382.9487
AP212,1,y,1,11,44,Hard,2,1,2,0.41304,0,9  11   6   4  12   8   3   2,9  11   6   4  12   8   3  10,386.1985,387.1984,388.2077,389.215,390.223,390.6482,390.9058
AP212,1,y,1,12,45,Easy,1,1,1,0.50753,1,11   6   5   7,3  6  5  7,394.2313,395.2361,396.2354,397.2347,398.234,398.7503,399.0001
AP212,1,y,1,12,46,Easy,1,1,2,0.49307,0,6  12   5   3,7  12   5   3,402.2312,403.2307,404.2306,405.2305,406.2305,406.7304,406.9804
AP212,1,y,1,12,47,Easy,1,2,1,0.64215,0,2  8  5  6,11   8   5   6,410.2302,411.2301,412.2301,413.23,414.2394,414.8965,415.1554
AP212,1,y,1,12,48,Easy,1,2,2,0.44537,1,1   7   9  10,5   7   9  10,418.2463,419.2525,420.2518,421.2511,422.2504,422.7127,422.9666
