SubjID,Run,Feedback,Counterbalance,Block,Trial,Condition,Cond_num(1=E/2=H),CorResp(1=L/2=R),Resp,RT,GradedResp,CorGrid,DecoyGrid,TrialStart/Stim1,Stim2,Stim3,Stim4,MemProbe,Feedback,TrialEnd
BB211,1,y,1,1,1,Easy,1,2,1,0.67749,0,3   1  11   5,3   1  10   5,16.0893,17.0892,18.0892,19.0891,20.089,20.7826,21.0389
BB211,1,y,1,1,2,Easy,1,2,2,0.43671,1,1   6   2  10,1  12   2  10,24.097,25.1053,26.1123,27.1219,28.1275,28.5771,28.827
BB211,1,y,1,1,3,Easy,1,2,2,0.44696,1,11   5  12  10,11   5  12   6,32.1246,33.1239,34.1232,35.1225,36.1218,36.5715,36.8213
BB211,1,y,1,1,4,Easy,1,1,2,0.35629,0,11   7   5  12,11   8   5  12,40.121,41.1209,42.1208,43.1208,44.1207,44.4873,44.7373
BB211,1,y,1,2,5,Hard,2,1,1,0.34469,1,10  11   1  12   9   6   2   5,10  11   1   8   9   6   2   5,48.13,49.137,50.1453,51.1535,52.1605,52.5201,52.7767
BB211,1,y,1,2,6,Hard,2,2,1,0.33167,0,6   9   5   2   1   8   7  12,11   9   5   2   1   8   7  12,56.1699,57.1736,58.1729,59.1722,60.1715,60.5196,60.7711
BB211,1,y,1,2,7,Hard,2,1,2,0.32232,0,7   2   5   1   4  10  12  11,7   6   5   1   4  10  12  11,64.1693,65.1692,66.1692,67.1691,68.169,68.5023,68.7523
BB211,1,y,1,2,8,Hard,2,2,1,0.2087,0,7   4   9  12   1   3  11  10,7   4   9   2   1   3  11  10,72.1688,73.1687,74.1783,75.1852,76.1935,76.4185,76.6765
BB211,1,y,1,3,9,Hard,2,2,2,0.4007,1,4  11  10   1   9   6   3   5,12  11  10   1   9   6   3   5,80.2015,81.2067,82.206,83.2053,84.2045,84.6209,84.8707
BB211,1,y,1,3,10,Hard,2,1,2,0.31964,0,7   1  11   9  12   6   5  10,7   8  11   9  12   6   5  10,88.2017,89.201,90.2009,91.2008,92.2007,92.534,92.784
BB211,1,y,1,3,11,Hard,2,1,2,0.57472,0,2   9   6  12   1   5   3   8,2   9  11  12   1   5   3   8,96.2005,97.2004,98.2003,99.2002,100.2099,100.8001,101.0501
BB211,1,y,1,3,12,Hard,2,2,1,0.34701,0,12   5   7  10   3   8   6   9,11   5   7  10   3   8   6   9,104.2166,105.223,106.2223,107.2216,108.2209,108.5829,108.8372
BB211,1,y,1,4,13,Easy,1,1,2,0.43003,0,9  5  2  8,9  3  2  8,112.2222,113.2174,114.2167,115.216,116.2157,116.649,116.899
BB211,1,y,1,4,14,Easy,1,1,1,0.37873,1,11  12   3   4,11   9   3   4,120.2155,121.2154,122.2153,123.2153,124.2152,124.6094,124.8651
BB211,1,y,1,4,15,Easy,1,2,1,0.37902,0,6   4  10   5,6   4  11   5,128.2235,129.2315,130.2387,131.2481,132.254,132.6479,132.9035
BB211,1,y,1,4,16,Easy,1,2,2,0.35198,1,11   1   9  10,11   1   9   4,136.2512,137.2504,138.2497,139.249,140.2483,140.6147,140.8646
BB211,1,y,1,5,17,Hard,2,1,2,0.33467,0,4   5   8  11   7   2  12   1,9   5   8  11   7   2  12   1,157.0198,158.0296,159.0351,160.0344,161.0337,161.3834,161.6332
BB211,1,y,1,5,18,Hard,2,1,1,0.44216,1,4   6   5   1   9   3  10   7,4   6   5   1   8   3  10   7,165.0308,166.0301,167.0294,168.0289,169.0288,169.4788,169.7287
BB211,1,y,1,5,19,Hard,2,2,1,0.63874,0,3   2   8   6   7  10   1   9,3   2   8   6   7  11   1   9,173.0285,174.0285,175.0284,176.0283,177.0282,177.6782,177.9282
BB211,1,y,1,5,20,Hard,2,1,2,0.43985,0,6  10   4   5   3   1  12   7,9  10   4   5   3   1  12   7,181.0362,182.0446,183.0515,184.0611,185.0667,185.5164,185.7662
BB211,1,y,1,6,21,Easy,1,2,2,0.62811,1,4  9  3  2,4  11   3   2,189.0639,190.0632,191.0625,192.0618,193.0611,193.6939,193.9438
BB211,1,y,1,6,22,Easy,1,2,2,0.44241,1,1  8  2  4,10   8   2   4,197.0602,198.0601,199.0601,200.06,201.0599,201.5099,201.7599
BB211,1,y,1,6,23,Easy,1,1,1,0.59302,1,9   5  12  10,9   5  12   1,205.0693,206.0763,207.0845,208.0928,209.0998,209.7093,209.9658
BB211,1,y,1,6,24,Easy,1,1,1,0.74301,1,9  6  2  4,8  6  2  4,213.1091,214.1129,215.1122,216.1115,217.1108,217.8602,218.1101
BB211,1,y,1,7,25,Easy,1,1,2,0.66235,0,4  12   1  10,4   2   1  10,221.1086,222.1085,223.1084,224.1084,225.1083,225.788,226.0416
BB211,1,y,1,7,26,Easy,1,2,1,0.81923,0,6   9   2  10,6  9  2  1,229.108,230.108,231.1176,232.1245,233.1328,233.9655,234.2243
BB211,1,y,1,7,27,Easy,1,1,1,1.0425,1,11   5   6   7,11   9   6   7,237.141,238.1459,239.1452,240.1445,241.1438,242.1931,242.4429
BB211,1,y,1,7,28,Easy,1,1,1,0.85681,1,6  9  5  2,6  9  5  3,245.141,246.1408,247.1401,248.1401,249.14,250.0066,250.2566
BB211,1,y,1,8,29,Hard,2,2,1,0.92246,0,4   6   5   9   7  11  10   3,4   6   5   9   8  11  10   3,253.1397,254.1396,255.1396,256.1395,257.1492,258.0894,258.3393
BB211,1,y,1,8,30,Hard,2,1,2,0.84423,0,5  10   1   9   4   6   7   3,5  10   1   9   4  11   7   3,261.1558,262.1623,263.1616,264.1609,265.1602,266.0222,266.2761
BB211,1,y,1,8,31,Hard,2,2,1,0.94089,0,5  11  10   9   4   2   6   1,5  11  10   9   4   7   6   1,269.1574,270.1567,271.156,272.1553,273.155,274.1049,274.3549
BB211,1,y,1,8,32,Hard,2,2,2,1.1462,1,11   7   8   2   9  10  12   1,11   7   8   4   9  10  12   1,277.1547,278.1547,279.1546,280.1545,281.1545,282.3148,282.571
BB211,1,y,1,9,33,Easy,1,1,2,1.0389,0,8   2  10   3,8   2  10  12,298.6699,299.6699,300.6698,301.6697,302.6697,303.7196,303.9696
BB211,1,y,1,9,34,Easy,1,2,1,1.4243,0,3   5  10   8,3   5  10   9,306.6694,307.6693,308.6693,309.6788,310.6858,312.1271,312.3857
BB211,1,y,1,9,35,Easy,1,2,2,1.4218,1,2  1  4  5,2  1  8  5,314.6919,315.6912,316.6905,317.6898,318.6891,320.1214,320.3713
BB211,1,y,1,9,36,Easy,1,2,2,1.6308,1,9   8   2  12,11   8   2  12,322.6863,323.6856,324.6849,325.6848,326.6847,328.3323,328.5846
BB211,1,y,1,10,37,Hard,2,2,2,1.1586,1,8   9  11  12   6   1   2   7,8   9  11  12   6   1  10   7,330.6844,331.6844,332.6843,333.6842,334.6841,335.8603,336.1174
BB211,1,y,1,10,38,Hard,2,1,2,0.88805,0,6   9   7  10  12   4   5   1,6   9   7   3  12   4   5   1,338.6917,339.7005,340.7069,341.7062,342.7055,343.6049,343.8547
BB211,1,y,1,10,39,Hard,2,1,2,1.2042,0,10  11   1   7   9   6   2   4,10   8   1   7   9   6   2   4,346.7027,347.702,348.7013,349.7006,350.6999,351.9163,352.1663
BB211,1,y,1,10,40,Hard,2,2,2,1.4399,1,1   9   6   4   8  12   7  10,3   9   6   4   8  12   7  10,354.6995,355.6994,356.6993,357.6993,358.6992,360.1491,360.3991
BB211,1,y,1,11,41,Hard,2,2,2,1.7549,1,12  10   5  11   9   2   3   1,12   6   5  11   9   2   3   1,362.7081,363.7155,364.7233,365.732,366.7386,368.504,368.7538
BB211,1,y,1,11,42,Hard,2,2,2,1.4288,1,9   1   4   6  10   5   3  11,9   1   4   6  12   5   3  11,370.7357,371.735,372.7343,373.7336,374.7329,376.1652,376.4151
BB211,1,y,1,11,43,Hard,2,1,1,1.2837,1,6   5   2   3   4  12   9   8,6   5   2   3   4  12   9   1,378.7311,379.7311,380.731,381.7309,382.7309,384.0308,384.2808
BB211,1,y,1,11,44,Hard,2,1,2,1.4264,0,7   6   3  11  12   2   1   4,7   6   3   9  12   2   1   4,386.7306,387.7305,388.7397,389.7471,390.755,392.1969,392.4537
BB211,1,y,1,12,45,Easy,1,1,1,1.3765,1,6  11   1   2,6  9  1  2,394.7634,395.7681,396.7674,397.7667,398.766,400.1483,400.3981
BB211,1,y,1,12,46,Easy,1,1,1,1.1061,1,1   3  12   6,1  3  2  6,402.7632,403.7628,404.7627,405.7626,406.7626,407.8791,408.1291
BB211,1,y,1,12,47,Easy,1,1,1,1.2467,1,9  3  2  5,9  7  2  5,410.7623,411.7622,412.7622,413.7621,414.7714,416.0286,416.2869
BB211,1,y,1,12,48,Easy,1,2,2,1.8147,1,2   1   5  11,3   1   5  11,418.7784,419.7845,420.7838,421.7831,422.7824,424.6144,424.8642
