SubjID,Run,Feedback,Counterbalance,Block,Trial,Condition,Cond_num(1=E/2=H),CorResp(1=L/2=R),Resp,RT,GradedResp,CorGrid,DecoyGrid,TrialStart/Stim1,Stim2,Stim3,Stim4,MemProbe,Feedback,TrialEnd
BR212,2,y,2,1,1,Hard,2,1,2,1.0334,0,12   8   4  10  11   9   2   5,12   8   4  10  11   1   2   5,16.0784,17.0878,18.0936,19.0929,20.0922,21.1414,21.3913
BR212,2,y,2,1,2,Hard,2,1,1,1.1244,1,4   5   1   2   9   3  10   7,4   5   1   2   9   3  11   7,24.0893,25.0886,26.0879,27.0872,28.0869,29.2202,29.4701
BR212,2,y,2,1,3,Hard,2,1,1,0.92756,1,9   1   2  10   6   4  12   3,9   8   2  10   6   4  12   3,32.0866,33.0865,34.0865,35.0864,36.0863,37.03,37.2862
BR212,2,y,2,1,4,Hard,2,2,1,1.2226,0,9   8   2   1   7   6   5  12,9   4   2   1   7   6   5  12,40.0945,41.1026,42.1098,43.1191,44.125,45.3574,45.6072
BR212,2,y,2,2,5,Easy,1,1,1,0.84158,1,4   8   7  12,4   8   6  12,48.1221,49.1214,50.1207,51.12,52.1192,52.9686,53.2184
BR212,2,y,2,2,6,Easy,1,1,1,1.0444,1,3  9  8  7,3  9  4  7,56.118,57.1179,58.1179,59.1178,60.1177,61.1794,61.4342
BR212,2,y,2,2,7,Easy,1,2,2,0.95684,1,2  5  1  3,9  5  1  3,64.1273,65.134,66.1425,67.1505,68.1578,69.1237,69.3735
BR212,2,y,2,2,8,Easy,1,2,2,0.86755,1,10   9  11   4,10   3  11   4,72.1667,73.1708,74.1701,75.1694,76.1687,77.0513,77.3012
BR212,2,y,2,3,9,Easy,1,2,2,0.85074,1,10   2   8   3,10   2  11   3,80.1661,81.166,82.1659,83.1659,84.1658,85.0324,85.2823
BR212,2,y,2,3,10,Easy,1,2,2,0.89994,1,4  12  10   1,4   3  10   1,88.1655,89.1738,90.182,91.1912,92.1985,93.115,93.373
BR212,2,y,2,3,11,Easy,1,2,2,0.85177,1,10   5   2  11,10   5   4  11,96.2043,97.2036,98.2029,99.2021,100.2014,101.0675,101.3173
BR212,2,y,2,3,12,Easy,1,2,2,0.71134,1,11   9   3   4,10   9   3   4,104.1986,105.1978,106.1973,107.1973,108.1972,108.9138,109.1638
BR212,2,y,2,4,13,Hard,2,2,2,0.92464,1,4   6  12   1   2  11  10   5,4   6   3   1   2  11  10   5,112.1969,113.1968,114.1967,115.1966,116.1966,117.1393,117.3964
BR212,2,y,2,4,14,Hard,2,2,2,1.1141,1,2   5   6   1   8  12   7   3,2  5  6  1  8  9  7  3,120.2038,121.2128,122.219,123.2183,124.2175,125.3458,125.5999
BR212,2,y,2,4,15,Hard,2,1,1,1.159,1,9   2   6  10  11   1   3   5,9   2   6  10  11   1   3   8,128.2147,129.214,130.2132,131.2125,132.2119,133.3785,133.6285
BR212,2,y,2,4,16,Hard,2,1,1,0.8876,1,1   5  12   3   4   7  11   2,1  10  12   3   4   7  11   2,136.2116,137.2115,138.2115,139.2114,140.2113,141.1112,141.3612
BR212,2,y,2,5,17,Easy,1,2,2,1.5059,1,12   5   6  10,12   7   6  10,157.4604,158.4599,159.4598,160.4597,161.4596,162.9761,163.2261
BR212,2,y,2,5,18,Easy,1,1,1,1.3894,1,3   7   9  10,3   7  11  10,165.4593,166.4592,167.4591,168.4591,169.4684,170.8755,171.1339
BR212,2,y,2,5,19,Easy,1,1,1,1.1499,1,5   9  12   2,5   3  12   2,173.4753,174.4815,175.4808,176.4801,177.4794,178.6452,178.895
BR212,2,y,2,5,20,Easy,1,1,1,0.68591,1,11  12   4   3,6  12   4   3,181.4765,182.4758,183.4751,184.4745,185.4744,186.1743,186.4243
BR212,2,y,2,6,21,Hard,2,1,1,0.87172,1,4   2   5   3   7   1   6  10,4   2   5   3  12   1   6  10,189.4741,190.474,191.4739,192.4738,193.4737,194.357,194.607
BR212,2,y,2,6,22,Hard,2,1,1,1.2354,1,7   4   6   9  10   8   2  12,7   4   6   5  10   8   2  12,197.4817,198.49,199.4969,200.5065,201.5121,202.7612,203.0111
BR212,2,y,2,6,23,Hard,2,1,2,1.4285,0,4   5  12  11   8   2  10   6,4   5  12  11   8   3  10   6,205.5093,206.5086,207.5078,208.5071,209.5064,210.939,211.189
BR212,2,y,2,6,24,Hard,2,1,1,1.2908,1,12   3  10   2   6  11   5   4,12   3  10   2   6  11   5   9,213.5055,214.5054,215.5053,216.5052,217.5052,218.805,219.055
BR212,2,y,2,7,25,Hard,2,2,2,1.3329,1,6  10   3   9   1  11   8   4,6  10   3   9   2  11   8   4,221.5145,222.5214,223.5297,224.5379,225.5449,226.8939,227.1438
BR212,2,y,2,7,26,Hard,2,2,2,0.98424,1,5   6   4  11   7   9  12   1,5   6   4  11   8   9  12   1,229.5542,230.558,231.5573,232.5566,233.5558,234.5551,234.8049
BR212,2,y,2,7,27,Hard,2,2,2,1.2384,1,3  12   5   9   7  10   4   2,3  12   5   9   7  10   6   2,237.5536,238.5535,239.5534,240.5533,241.5532,242.8031,243.0531
BR212,2,y,2,7,28,Hard,2,1,1,0.87164,1,5   7  11  10  12   3   1   6,5   7  11  10  12   8   1   6,245.5529,246.5528,247.5625,248.5693,249.5777,250.4604,250.7192
BR212,2,y,2,8,29,Easy,1,2,2,0.99341,1,8  11   7  10,8  11   7   4,253.5856,254.5908,255.5901,256.5893,257.5886,258.5879,258.8377
BR212,2,y,2,8,30,Easy,1,1,2,1.0165,0,9   4   6  12,9  4  6  1,261.5858,262.585,263.5848,264.5848,265.5847,266.6179,266.8679
BR212,2,y,2,8,31,Easy,1,1,1,0.7357,1,7  8  1  6,7  8  1  3,269.5843,270.5843,271.5842,272.5841,273.5938,274.3433,274.6006
BR212,2,y,2,8,32,Easy,1,1,1,0.83586,1,5  10   4   6,5  2  4  6,277.6004,278.6069,279.6062,280.6055,281.6047,282.4541,282.7039
BR212,2,y,2,9,33,Hard,2,2,2,1.3759,1,7  10  11   6   2   9  12   4,5  10  11   6   2   9  12   4,298.8091,299.8153,300.8243,301.8318,302.8395,304.2316,304.4883
BR212,2,y,2,9,34,Hard,2,1,1,0.90777,1,1   9   2   4  10  12   8   5,1   9   2   4  10  12   8   3,306.848,307.8526,308.8519,309.8512,310.8505,311.7664,312.0163
BR212,2,y,2,9,35,Hard,2,2,2,1.4557,1,5   6   8  10   2   3  11  12,5   6   8  10   2   3  11   1,314.8476,315.8473,316.8473,317.8472,318.8471,320.3136,320.5636
BR212,2,y,2,9,36,Hard,2,1,2,1.246,0,7   1  10   9   3   6   4   2,7   1  10   5   3   6   4   2,322.8468,323.8467,324.8466,325.8465,326.8557,328.113,328.3712
BR212,2,y,2,10,37,Easy,1,1,1,1.1431,1,11   6   7  12,11   6   5  12,330.8628,331.8687,332.868,333.8673,334.8666,336.0157,336.2656
BR212,2,y,2,10,38,Easy,1,2,1,1.3621,0,2   9  12   7,4   9  12   7,338.8637,339.863,340.8623,341.8619,342.8619,344.2284,344.4784
BR212,2,y,2,10,39,Easy,1,1,1,1.6186,1,9   5   2  11,9   5  12  11,346.8615,347.8615,348.8614,349.8613,350.8612,352.4944,352.7444
BR212,2,y,2,10,40,Easy,1,2,2,0.97952,1,6  8  4  5,6  8  4  9,354.8689,355.8775,356.8841,357.8834,358.8827,359.8772,360.1318
BR212,2,y,2,11,41,Easy,1,2,2,0.93222,1,4   1   9  10,2   1   9  10,362.8798,363.8791,364.8784,365.8777,366.877,367.8265,368.0765
BR212,2,y,2,11,42,Easy,1,1,1,1.0951,1,5  11   3  10,5  11   4  10,370.8763,371.8762,372.8761,373.8761,374.876,375.9871,376.2425
BR212,2,y,2,11,43,Easy,1,2,2,0.83689,1,10   4   9   2,10   4   3   2,378.885,379.8922,380.9003,381.9088,382.9155,383.7649,384.0147
BR212,2,y,2,11,44,Easy,1,1,1,0.83525,1,4  1  9  8,4  1  7  8,386.925,387.9286,388.9282,389.9271,390.9264,391.7758,392.0256
BR212,2,y,2,12,45,Hard,2,2,2,1.0039,1,5   9   4  12   7  11   8   6,5   9   4  12  10  11   8   6,394.9244,395.9243,396.9242,397.9242,398.9241,399.9406,400.1906
BR212,2,y,2,12,46,Hard,2,2,2,1.1488,1,8   4  10   1   6   9  12  11,8   4  10   1   6   9  12   2,402.9238,403.9237,404.933,405.9402,406.9483,408.1141,408.3639
BR212,2,y,2,12,47,Hard,2,2,2,1.0439,1,10   6   2  11   5   1  12   4,10   6   2  11   5   9  12   4,410.9564,411.9613,412.9606,413.9599,414.9592,416.0084,416.2582
BR212,2,y,2,12,48,Hard,2,2,2,1.0379,1,7   8  11   1   3   9  10  12,7   8  11   1   3   9   6  12,418.9563,419.9557,420.9557,421.9556,422.9555,424.0054,424.2554
