SubjID,Run,Feedback,Counterbalance,Block,Trial,Condition,Cond_num(1=E/2=H),CorResp(1=L/2=R),Resp,RT,GradedResp,CorGrid,DecoyGrid,TrialStart/Stim1,Stim2,Stim3,Stim4,MemProbe,Feedback,TrialEnd
BU213,1,y,1,1,1,Easy,1,2,2,0.71254,1,8  6  7  4,8  5  7  4,16.0719,17.0718,18.0718,19.0717,20.0716,20.7978,21.0548
BU213,1,y,1,1,2,Easy,1,1,1,1.1549,1,6  11   2   1,6  9  2  1,24.0788,25.0879,26.0941,27.0934,28.0926,29.2584,29.5083
BU213,1,y,1,1,3,Easy,1,2,2,0.67964,1,7   8   3  11,7  8  3  6,32.0898,33.0891,34.0883,35.0876,36.087,36.7703,37.0202
BU213,1,y,1,1,4,Easy,1,1,1,0.69696,1,3  11   7   9,3  11   6   9,40.0867,41.0866,42.0865,43.0864,44.0864,44.7973,45.0529
BU213,1,y,1,2,5,Hard,2,1,1,0.95338,1,1   7  10   9   6   8   2  11,1   7  10   9   6   8   5  11,48.095,49.1026,50.1102,51.1191,52.1254,53.0914,53.3412
BU213,1,y,1,2,6,Hard,2,2,2,0.79676,1,12   3  11   7   9   2  10   8,12   3  11   7   9   4  10   8,56.1226,57.1218,58.1211,59.1204,60.1197,60.9191,61.1689
BU213,1,y,1,2,7,Hard,2,2,1,0.89639,0,4  11  12   5   6   1   2   8,3  11  12   5   6   1   2   8,64.1181,65.118,66.118,67.1179,68.1178,69.03,69.2844
BU213,1,y,1,2,8,Hard,2,1,2,0.91217,0,5  12   1  11  10   6   9   3,5  12   1   7  10   6   9   3,72.1175,73.1271,74.134,75.1423,76.1505,77.0742,77.324
BU213,1,y,1,3,9,Hard,2,1,1,1.1265,1,2   9   8   3   1  10  11   5,2   9   8   3   4  10  11   5,80.1554,81.1546,82.154,83.1532,84.1525,85.285,85.5348
BU213,1,y,1,3,10,Hard,2,1,1,1.1119,1,9   4   7  11  10   8  12   5,9   4   7   3  10   8  12   5,88.1496,89.1495,90.1494,91.1493,92.1492,93.2658,93.5158
BU213,1,y,1,3,11,Hard,2,2,2,0.96005,1,3  11  12   9   4   6   5   2,3  11  12   9   4   1   5   2,96.1489,97.1488,98.1488,99.1584,100.1653,101.1403,101.3985
BU213,1,y,1,3,12,Hard,2,2,2,1.1508,1,7   1   5  12   4   3   9  11,7   1   5   6   4   3   9  11,104.1715,105.1708,106.1701,107.1693,108.1686,109.3344,109.5843
BU213,1,y,1,4,13,Easy,1,1,1,0.79178,1,6   9   8  12,6  9  8  3,112.1721,113.1817,114.181,115.1808,116.1807,116.9806,117.2306
BU213,1,y,1,4,14,Easy,1,1,1,1.036,1,7  12   3   2,7  12   8   2,120.1804,121.1803,122.1802,123.1801,124.18,125.2299,125.4799
BU213,1,y,1,4,15,Easy,1,1,1,0.95688,1,11  10   4   2,11  10   3   2,128.1876,129.1963,130.2029,131.2021,132.2014,133.1674,133.4172
BU213,1,y,1,4,16,Easy,1,1,1,0.88518,1,1   5  12  10,1   4  12  10,136.1986,137.1978,138.1971,139.1964,140.1957,141.0954,141.3453
BU213,1,y,1,5,17,Hard,2,2,2,0.97777,1,6   7   8  12   2   9   3  10,6   7   8  12   2   9   4  10,157.45,158.4493,159.4486,160.4479,161.4471,162.4298,162.6796
BU213,1,y,1,5,18,Hard,2,2,2,1.0568,1,6  11  12   7   2   3   1   9,5  11  12   7   2   3   1   9,165.4443,166.4436,167.4433,168.4432,169.4431,170.5097,170.7597
BU213,1,y,1,5,19,Hard,2,1,1,0.93044,1,5   7   8   2   1  12  11  10,5   7   8   2   1  12  11   4,173.4428,174.4427,175.4427,176.4426,177.4425,178.385,178.6424
BU213,1,y,1,5,20,Hard,2,1,1,1.0672,1,3  12  11   8   1   5   4   2,3  12  11   8   9   5   4   2,181.4495,182.4588,183.4647,184.464,185.4633,186.5458,186.7957
BU213,1,y,1,6,21,Easy,1,2,2,0.75216,1,8  10   9   6,8  10   9   3,189.4604,190.4597,191.459,192.4583,193.4579,194.2245,194.4745
BU213,1,y,1,6,22,Easy,1,2,2,0.73867,1,3   8  10   6,5   8  10   6,197.4576,198.4575,199.4574,200.4574,201.4573,202.2072,202.4572
BU213,1,y,1,6,23,Easy,1,2,2,0.62944,1,8   9   6  10,8  9  6  1,205.4656,206.4736,207.4809,208.4901,209.4961,210.1399,210.3954
BU213,1,y,1,6,24,Easy,1,1,1,0.81872,1,3  5  8  6,3   5  10   6,213.4932,214.4925,215.4918,216.4911,217.4904,218.3231,218.5729
BU213,1,y,1,7,25,Easy,1,2,2,0.93611,1,12  11   8   9,12  11   8   6,221.489,222.489,223.4889,224.4888,225.4887,226.4386,226.6886
BU213,1,y,1,7,26,Easy,1,1,1,0.83711,1,6   3   5  10,6   2   5  10,229.4984,230.505,231.5136,232.5215,233.5289,234.3782,234.6281
BU213,1,y,1,7,27,Easy,1,2,2,1.1375,1,5   3  10  11,5   8  10  11,237.5378,238.542,239.5412,240.5405,241.5398,242.689,242.9388
BU213,1,y,1,7,28,Easy,1,2,2,0.87064,1,10   5  12   7,10   4  12   7,245.5371,246.5371,247.537,248.5369,249.5368,250.4201,250.6701
BU213,1,y,1,8,29,Hard,2,2,2,1.1327,1,12   9   3   7   6   1   2  11,12   9   8   7   6   1   2  11,253.5365,254.5364,255.5364,256.5457,257.5529,258.7028,258.9607
BU213,1,y,1,8,30,Hard,2,1,1,1.2514,1,12   1   2   8   3   5   4  11,12   1   2   7   3   5   4  11,261.5588,262.5581,263.5574,264.5567,265.5559,266.8217,267.0715
BU213,1,y,1,8,31,Hard,2,1,2,0.8434,0,10   1   7   6   2   3   5  12,10   1   9   6   2   3   5  12,269.5531,270.5524,271.5518,272.5517,273.5516,274.4015,274.6515
BU213,1,y,1,8,32,Hard,2,1,1,0.83533,1,10   2   7   6   1  11   5   8,10   2   7   9   1  11   5   8,277.5513,278.5512,279.5511,280.551,281.551,282.4009,282.6509
BU213,1,y,1,9,33,Easy,1,2,2,1.173,1,12   3   9   5,12   8   9   5,298.7496,299.7495,300.7495,301.7494,302.7493,303.9325,304.1825
BU213,1,y,1,9,34,Easy,1,1,1,0.70357,1,2  6  3  4,8  6  3  4,306.749,307.7489,308.7583,309.7654,310.7736,311.4897,311.7395
BU213,1,y,1,9,35,Easy,1,2,2,1.1422,1,4  11   5   3,4  11   9   3,314.7817,315.7866,316.7859,317.7852,318.7845,319.9337,320.1835
BU213,1,y,1,9,36,Easy,1,1,1,1.0012,1,8  10  11   3,8   5  11   3,322.7816,323.781,324.7809,325.7808,326.7807,327.7973,328.0473
BU213,1,y,1,10,37,Hard,2,1,2,1.0162,0,7  10   8   9   6   4  12   1,7  10   8   9   6  11  12   1,330.7804,331.7803,332.7803,333.7802,334.7897,335.8223,336.08
BU213,1,y,1,10,38,Hard,2,1,2,1.1868,0,8  12   2   6   4  10   7   1,8  12   5   6   4  10   7   1,338.7965,339.8028,340.8021,341.8014,342.8006,343.9998,344.2496
BU213,1,y,1,10,39,Hard,2,2,2,0.88203,1,9   7   4   8  10   5   2   3,9   7   6   8  10   5   2   3,346.7978,347.7971,348.7963,349.7956,350.7955,351.6954,351.9454
BU213,1,y,1,10,40,Hard,2,1,1,0.9354,1,7   8   5  11  10  12   6   9,7   8   5  11  10   3   6   9,354.7952,355.7951,356.795,357.795,358.7949,359.7448,359.9948
BU213,1,y,1,11,41,Hard,2,2,2,1.0204,1,10  12   3   2   7   1   6   8,10  12   3   2   7   9   6   8,362.803,363.8112,364.8182,365.8277,366.8334,367.866,368.1158
BU213,1,y,1,11,42,Hard,2,2,1,1.2367,0,12   6   5  10   2   9   4   1,12   6   5  10   3   9   4   1,370.8306,371.8299,372.8291,373.8284,374.8277,376.0768,376.3268
BU213,1,y,1,11,43,Hard,2,2,2,1.1669,1,8   5  11  12   2   4   1   9,8   5  11  12   7   4   1   9,378.8266,379.8266,380.8265,381.8264,382.8263,384.0096,384.2595
BU213,1,y,1,11,44,Hard,2,2,2,0.96803,1,4   3   5   9  12   8  10   6,11   3   5   9  12   8  10   6,386.8358,387.8426,388.851,389.8591,390.8662,391.8488,392.0987
BU213,1,y,1,12,45,Easy,1,1,2,0.98915,0,8   2  10   1,7   2  10   1,394.8754,395.8793,396.8786,397.8779,398.8772,399.8764,400.1263
BU213,1,y,1,12,46,Easy,1,1,1,0.78856,1,9   6  12  11,9   3  12  11,402.8747,403.8747,404.8746,405.8745,406.8744,407.6744,407.9243
BU213,1,y,1,12,47,Easy,1,2,2,1.2224,1,7   8   1  10,7   3   1  10,410.8741,411.874,412.874,413.8831,414.8905,416.1237,416.3813
BU213,1,y,1,12,48,Easy,1,2,2,0.99371,1,11   1   2   4,11  10   2   4,418.8962,419.8955,420.8947,421.894,422.8933,423.8926,424.1424
